Participant Public ID,Sex,Sex-quantised,Age,IMD Score,Crime Rank,CFC Q1,CFC Q1-quantised,CFC Q2,CFC Q2-quantised,CFC Q3,CFC Q3-quantised,Q3 Reversed,CFC Q4,CFC Q4-quantised,Q4 Reversed,CFC Q5,CFC Q5-quantised,Q5 Reversed,CFC Q6,CFC Q6-quantised,CFC Q7,CFC Q7-quantised,CFC Q8,CFC Q8-quantised,CFC Q9,CFC Q9-quantised,Q9 Reversed,CFC Q10,CFC Q10-quantised,Q10 Reversed,CFC Q11,CFC Q11-quantised,Q11 Reversed,CFC Q12,CFC Q12-quantised,Q12 Reversed,CFC Mean Score,PGG Round 1,PGG Round 2,PGG Round 3,PGG Round 4,PGG Round 5,PGG Mean Contribution
2917,Male,1,45,17551,19572,5,5,5,5,1,1,5,1,1,5,1,1,5,5,5,4,4,4,4,1,1,5,1,1,5,1,1,5,2,2,4,4.75,5,1,1,0,0,1.4
4095,Male,1,18,13718,10275,4,4,4,4,3,3,3,2,2,4,4,4,2,2,2,4,4,4,4,2,2,4,2,2,4,4,4,2,4,4,2,3.25,10,3,10,10,10,8.6
4128,Female,2,19,16181,22880,3,3,2,2,1,1,5,3,3,3,3,3,3,4,4,5,5,3,3,2,2,4,3,3,3,2,2,4,3,3,3,3.5,5,8,6,8,10,7.4
4136,Female,2,22,14717,15563,5,5,5,5,1,1,5,2,2,4,4,4,2,5,5,2,2,2,2,3,3,3,2,2,4,2,2,4,2,2,4,3.75,0,1,2,2,3,1.6
4231,Male,1,35,15675,6379,4,4,3,3,2,2,4,3,3,3,2,2,4,4,4,4,4,3,3,2,2,4,2,2,4,2,2,4,3,3,3,3.666666667,10,10,8,10,8,9.2
4208,Female,2,23,30122,13725,4,4,2,2,1,1,5,2,2,4,4,4,2,4,4,4,4,4,4,2,2,4,1,1,5,2,2,4,4,4,2,3.666666667,5,2,0,0,0,1.4
4270,Female,2,23,9275,10103,2,2,3,3,2,2,4,4,4,2,4,4,2,4,4,4,4,3,3,4,4,2,2,2,4,3,3,3,3,3,3,3,6,7,3,9,1,5.2
4192,Female,2,23,16891,22479,4,4,4,4,1,1,5,2,2,4,3,3,3,4,4,4,4,3,3,2,2,4,3,3,3,2,2,4,1,1,5,3.916666667,7,1,10,10,10,7.6
4125,Female,2,40,9353,14736,5,5,2,2,1,1,5,1,1,5,4,4,2,5,5,1,1,5,5,4,4,2,2,2,4,1,1,5,2,2,4,3.75,10,10,10,10,10,10
4221,Female,2,25,7823,10842,3,3,3,3,2,2,4,1,1,5,3,3,3,4,4,3,3,3,3,2,2,4,2,2,4,3,3,3,2,2,4,3.583333333,8,9,10,9,8,8.8
4182,Female,2,19,,,4,4,4,4,4,4,2,4,4,2,4,4,2,2,2,4,4,3,3,3,3,3,1,1,5,4,4,2,3,3,3,3,0,0,3,4,8,3
4100,Female,2,19,6746,9429,5,5,5,5,2,2,4,2,2,4,4,4,2,4,4,4,4,2,2,1,1,5,1,1,5,2,2,4,3,3,3,3.916666667,2,4,6,4,6,4.4
4256,Female,2,32,11650,8560,4,4,4,4,2,2,4,2,2,4,2,2,4,4,4,4,4,3,3,2,2,4,3,3,3,2,2,4,2,2,4,3.833333333,10,2,10,10,10,8.4
4140,Female,2,57,12628,11911,3,3,4,4,3,3,3,2,2,4,3,3,3,3,3,4,4,3,3,2,2,4,2,2,4,2,2,4,3,3,3,3.5,0,0,0,0,0,0
4202,Female,2,19,11917,21199,5,5,4,4,2,2,4,2,2,4,3,3,3,3,3,5,5,1,1,2,2,4,1,1,5,3,3,3,2,2,4,3.75,4,2,5,10,6,5.4
4200,Female,2,20,14690,14932,3,3,3,3,3,3,3,3,3,3,3,3,3,3,3,4,4,3,3,2,2,4,3,3,3,3,3,3,3,3,3,3.166666667,4,3,6,7,7,5.4
4205,Female,2,19,15271,16134,3,3,4,4,2,2,4,2,2,4,2,2,4,3,3,2,2,2,2,4,4,2,4,4,2,3,3,3,4,4,2,2.916666667,5,3,10,10,10,7.6
4358,Female,2,27,8626,6316,5,5,4,4,4,4,2,4,4,2,5,5,1,3,3,5,5,4,4,1,1,5,2,2,4,2,2,4,3,3,3,3.5,6,6,6,7,7,6.4
4147,Female,2,21,11542,10706,3,3,4,4,4,4,2,4,4,2,4,4,2,2,2,2,2,3,3,4,4,2,4,4,2,4,4,2,4,4,2,2.333333333,5,6,5,6,2,4.8
4222,Female,2,20,11248,3685,4,4,3,3,5,5,1,5,5,1,4,4,2,3,3,2,2,3,3,4,4,2,4,4,2,4,4,2,5,5,1,2.166666667,2,3,1,4,7,3.4
4170,Male,1,22,20984,22344,4,4,3,3,2,2,4,4,4,2,4,4,2,1,1,2,2,5,5,2,2,4,4,4,2,3,3,3,3,3,3,2.916666667,10,1,1,10,2,4.8
4110,Female,2,35,24083,18687,2,2,2,2,1,1,5,1,1,4,3,3,3,4,4,3,3,2,2,3,3,3,2,2,4,3,3,3,2,2,4,3.25,10,10,10,10,10,10
4164,Female,2,18,6098,9002,4,4,2,2,4,4,2,3,3,3,5,5,1,4,4,4,4,3,3,2,2,4,1,1,5,4,4,2,2,2,4,3.166666667,7,9,10,10,7,8.6
4235,Female,2,48,17651,21966,4,4,5,5,2,2,4,2,2,4,3,3,3,3,3,3,3,3,3,2,2,4,2,2,4,4,4,2,4,4,2,3.416666667,10,1,5,5,5,5.2
4281,Female,2,19,,,3,3,3,3,4,4,2,4,4,2,4,4,2,4,4,4,4,4,4,3,3,3,2,2,4,3,3,3,3,3,3,3.083333333,10,9,10,10,10,9.8
4215,Female,2,27,23433,13316,3,3,2,2,1,1,5,1,1,5,4,4,2,2,2,5,5,3,3,2,2,4,1,1,5,1,1,5,3,3,3,3.666666667,5,8,5,10,10,7.6
4212,Female,2,18,8665,6730,4,4,3,3,2,2,4,4,4,2,3,3,3,5,5,5,5,3,3,1,1,5,2,2,4,2,2,4,3,3,3,3.75,5,3,5,9,10,6.4
4204,Female,2,19,10520,10273,4,4,3,3,2,2,4,5,5,1,4,4,2,4,4,5,5,3,3,1,1,5,2,2,4,5,5,1,4,4,2,3.166666667,6,7,8,10,8,7.8
4157,Female,2,40,9965,8310,3,3,2,2,4,4,2,2,2,4,1,1,5,3,3,4,4,4,4,5,5,1,5,5,1,2,2,4,4,4,2,2.916666667,5,5,9,6,5,6
4098,Female,2,18,16181,22880,5,5,5,5,1,1,5,1,1,5,5,5,1,5,5,5,5,3,3,1,1,5,1,1,5,3,3,3,5,5,1,4,1,9,2,10,7,5.8
4149,Female,2,24,16423,27893,4,4,3,3,2,2,4,3,3,3,4,4,2,2,2,5,5,3,3,1,1,5,4,4,2,3,3,3,4,4,2,3.166666667,5,10,5,10,5,7
4129,Female,2,21,16629,13585,4,4,4,4,2,2,4,2,2,4,4,4,2,3,3,3,3,4,4,2,2,4,2,2,4,3,3,3,3,3,3,3.5,3,3,3,3,3,3
4246,Female,2,18,5870,16602,5,5,3,3,1,1,5,1,1,5,5,5,1,5,5,5,5,5,5,1,1,5,2,2,4,1,1,5,2,2,4,4.333333333,10,2,10,9,9,8
4115,Female,2,20,21341,17326,4,4,3,3,4,4,2,3,3,3,3,3,3,5,5,4,4,4,4,4,4,2,3,3,3,4,4,2,3,3,3,3.166666667,3,2,8,5,6,4.8
4176,Female,2,24,2897,4820,5,5,4,4,2,2,4,2,2,4,3,3,3,4,4,3,3,4,4,4,4,2,2,2,4,2,2,4,2,2,4,3.75,5,3,7,10,4,5.8
4277,Female,2,19,4348,2131,4,4,3,3,1,1,5,1,1,5,5,5,1,2,2,5,5,4,4,2,2,4,1,1,5,2,2,4,4,4,2,3.666666667,3,7,10,10,10,8
4156,Female,2,26,8744,12561,4,4,2,2,4,4,2,4,4,2,4,4,2,3,3,2,2,4,4,4,4,2,4,4,2,4,4,2,2,2,4,2.583333333,5,5,10,10,7,7.4
4124,Male,1,19,12020,5131,4,4,4,4,3,3,3,2,2,4,5,5,1,2,2,5,5,1,1,2,2,4,4,4,2,1,1,5,5,5,1,3,10,0,5,10,10,7
3840,Female,2,20,25937,16104,4,4,3,3,1,1,5,1,1,5,2,2,4,5,5,5,5,3,3,1,1,5,1,1,5,1,1,5,3,3,3,4.333333333,10,10,10,10,10,10
4191,Female,2,22,7477,8474,5,5,4,4,2,2,4,4,4,2,4,4,2,4,4,5,5,4,4,3,3,3,3,3,3,2,2,4,4,4,2,3.5,10,2,10,10,10,8.4
4148,Female,2,19,,,3,3,4,4,2,2,4,4,4,2,3,3,3,3,3,4,4,2,2,4,4,2,2,2,4,4,4,2,3,3,3,3,4,2,9,5,3,4.6
4101,Female,2,19,,,4,4,2,2,4,4,2,5,5,1,2,2,4,4,4,5,5,5,5,3,3,3,2,2,4,4,4,2,2,2,4,3.333333333,5,5,10,10,10,8
4258,Female,2,22,13867,6557,4,4,4,4,2,2,4,2,2,4,4,4,2,5,5,5,5,4,4,2,2,4,2,2,4,2,2,4,2,2,4,4,9,3,10,10,10,8.4
4090,Female,2,20,15620,17339,3,3,3,3,4,4,2,4,4,2,3,3,3,3,3,4,4,3,3,3,3,3,4,4,2,4,4,2,4,4,2,2.666666667,3,1,3,6,7,4
4236,Female,2,34,8308,6209,4,4,5,5,4,4,2,3,3,3,4,4,2,3,3,2,2,3,3,4,4,2,3,3,3,4,4,2,2,2,4,2.916666667,9,9,9,9,9,9
4278,Female,2,19,7110,11888,4,4,2,2,3,3,3,4,4,2,4,4,2,2,2,4,4,3,3,2,2,4,2,2,4,4,4,2,3,3,3,2.916666667,6,5,10,10,4,7
4266,Female,2,19,17295,5977,3,3,4,4,5,5,1,3,3,3,2,2,4,4,4,4,4,2,2,2,2,4,3,3,3,2,2,4,3,3,3,3.25,4,7,8,7,9,7
4194,Female,2,18,16583,6758,4,4,3,3,4,4,2,2,2,4,4,4,2,5,5,5,5,3,3,1,1,5,1,1,5,1,1,5,3,3,3,3.833333333,6,7,9,5,9,7.2
4219,Female,2,27,20041,20262,4,4,2,2,3,3,3,4,4,2,4,4,2,2,2,4,4,3,3,3,3,3,2,2,4,2,2,4,4,4,2,2.916666667,10,2,10,10,5,7.4
4155,Female,2,19,3216,5249,4,4,3,3,2,2,4,2,2,4,3,3,3,2,2,4,4,3,3,2,2,4,2,2,4,3,3,3,3,3,3,3.416666667,5,5,6,8,1,5
4168,Male,1,28,14384,1162,3,3,3,3,4,4,2,4,4,2,4,4,2,3,3,4,4,3,3,2,2,4,2,2,4,4,4,2,3,3,3,2.916666667,2,2,2,2,2,2
4161,Female,2,23,32305,30277,4,4,2,2,4,4,2,4,4,2,4,4,2,2,2,3,3,3,3,3,3,3,4,4,2,4,4,2,3,3,3,2.5,4,4,5,5,10,5.6
4097,Female,2,18,17533,17417,3,3,3,3,4,4,2,4,4,2,4,4,2,4,4,4,4,3,3,2,2,4,3,3,3,3,3,3,3,3,3,3,4,4,7,10,10,7
4186,Female,2,18,,,3,3,3,3,4,4,2,3,3,3,3,3,3,3,3,2,2,2,2,3,3,3,4,4,2,4,4,2,4,4,2,2.5,3,5,6,10,10,6.8
4213,Female,2,18,20047,13509,3,3,3,3,2,2,4,3,3,3,3,3,3,4,4,3,3,3,3,2,2,4,2,2,4,2,2,4,2,2,4,3.5,10,2,10,10,10,8.4
4279,Female,2,19,21408,15079,4,4,3,3,4,4,2,3,3,3,4,4,2,4,4,4,4,4,4,2,2,4,3,3,3,3,3,3,2,2,4,3.333333333,7,5,7,4,6,5.8
4261,Female,2,20,4315,1715,5,5,4,4,4,4,2,4,4,2,4,4,2,5,5,4,4,3,3,2,2,4,2,2,4,3,3,3,4,4,2,3.333333333,5,8,8,9,9,7.8
4245,Female,2,21,12020,5131,4,4,2,2,4,4,2,4,4,2,4,4,2,4,4,2,2,2,2,4,4,2,4,4,2,4,4,2,4,4,2,2.333333333,10,10,10,10,10,10
4175,Female,2,20,22521,14913,4,4,3,3,4,4,2,3,3,3,4,4,2,5,5,4,4,5,5,4,4,2,2,2,4,2,2,4,3,3,3,3.416666667,10,2,10,10,5,7.4
4364,Male,1,22,,,4,4,3,3,3,3,3,2,2,4,4,4,2,5,5,5,5,4,4,1,1,5,1,1,5,2,2,4,2,2,4,4,0,0,0,0,0,0
4174,Male,1,20,6098,9002,4,4,4,4,4,4,2,3,3,3,2,2,4,4,4,4,4,4,4,2,2,4,2,2,4,4,4,2,3,3,3,3.5,10,2,8,10,10,8
4093,Female,2,21,2954,3617,5,5,4,4,4,4,2,3,3,3,4,4,2,5,5,4,4,4,4,5,5,1,5,5,1,4,4,2,5,5,1,2.833333333,10,2,5,10,7,6.8
4248,Female,2,23,9085,14362,4,4,2,2,4,4,2,2,2,4,4,4,2,3,3,5,5,2,2,2,2,4,2,2,4,4,4,2,5,5,1,2.916666667,8,9,10,10,8,9
4103,Female,2,18,15589,17009,4,4,3,3,4,4,2,4,4,2,3,3,3,2,2,4,4,3,3,4,4,2,2,2,4,4,4,2,4,4,2,2.75,5,6,10,5,10,7.2
4240,Female,2,19,19372,23163,5,5,5,5,2,2,4,1,1,5,4,4,2,2,2,5,5,4,4,1,1,5,5,5,1,1,1,5,1,1,5,4,5,5,5,3,6,4.8
4233,Female,2,21,3826,4658,3,3,4,4,3,3,3,4,4,2,4,4,2,2,2,2,2,2,2,2,2,4,4,4,2,4,4,2,3,3,3,2.583333333,2,5,3,1,1,2.4
